Angle,Intensity
20.005,204
20.015,197
20.025,178
20.035,185
20.045,174
20.055,198
20.065,196
20.075,222
20.085,213
20.095,190
20.105,201
20.115,211
20.125,195
20.135,213
20.145,216
20.155,221
20.165,222
20.175,187
20.185,221
20.195,231
20.205,183
20.215,210
20.225,217
20.235,204
20.245,209
20.255,213
20.265,189
20.275,194
20.285,206
20.295,206
20.305,203
20.315,200
20.325,192
20.335,224
20.345,208
20.355,219
20.365,218
20.375,203
20.385,219
20.395,215
20.405,214
20.415,189
20.425,195
20.435,200
20.445,198
20.455,192
20.465,205
20.475,218
20.485,198
20.495,193
20.505,202
20.515,207
20.525,208
20.535,227
20.545,204
20.555,208
20.565,207
20.575,184
20.585,213
20.595,227
20.605,224
20.615,203
20.625,225
20.635,199
20.645,200
20.655,215
20.665,189
20.675,173
20.685,224
20.695,191
20.705,178
20.715,211
20.725,198
20.735,204
20.745,209
20.755,188
20.765,214
20.775,210
20.785,217
20.795,208
20.805,218
20.815,221
20.825,200
20.835,213
20.845,243
20.855,209
20.865,222
20.875,228
20.885,200
20.895,228
20.905,230
20.915,204
20.925,217
20.935,213
20.945,235
20.955,232
20.965,205
20.975,214
20.985,246
20.995,222
21.005,256
21.015,210
21.025,241
21.035,214
21.045,233
21.055,235
21.065,225
21.075,235
21.085,226
21.095,251
21.105,247
21.115,252
21.125,248
21.135,225
21.145,246
21.155,236
21.165,241
21.175,248
21.185,237
21.195,218
21.205,261
21.215,223
21.225,231
21.235,244
21.245,228
21.255,250
21.265,227
21.275,233
21.285,232
21.295,242
21.305,270
21.315,236
21.325,230
21.335,278
21.345,266
21.355,251
21.365,298
21.375,256
21.385,251
21.395,265
21.405,293
21.415,274
21.425,294
21.435,269
21.445,243
21.455,237
21.465,268
21.475,263
21.485,266
21.495,305
21.505,290
21.515,285
21.525,269
21.535,270
21.545,261
21.555,261
21.565,281
21.575,251
21.585,259
21.595,311
21.605,251
21.615,248
21.625,273
21.635,286
21.645,287
21.655,242
21.665,267
21.675,225
21.685,250
21.695,230
21.705,268
21.715,252
21.725,264
21.735,242
21.745,226
21.755,251
21.765,214
21.775,238
21.785,264
21.795,240
21.805,243
21.815,232
21.825,228
21.835,212
21.845,228
21.855,227
21.865,219
21.875,249
21.885,226
21.895,239
21.905,223
21.915,219
21.925,215
21.935,248
21.945,224
21.955,210
21.965,227
21.975,220
21.985,211
21.995,213
22.005,222
22.015,219
22.025,226
22.035,210
22.045,254
22.055,234
22.065,230
22.075,229
22.085,223
22.095,193
22.105,209
22.115,212
22.125,219
22.135,219
22.145,216
22.155,206
22.165,224
22.175,214
22.185,227
22.195,225
22.205,219
22.215,230
22.225,224
22.235,235
22.245,204
22.255,212
22.265,221
22.275,197
22.285,233
22.295,210
22.305,228
22.315,218
22.325,207
22.335,203
22.345,227
22.355,209
22.365,201
22.375,208
22.385,235
22.395,217
22.405,216
22.415,218
22.425,227
22.435,215
22.445,228
22.455,217
22.465,210
22.475,213
22.485,205
22.495,214
22.505,243
22.515,204
22.525,219
22.535,212
22.545,185
22.555,233
22.565,200
22.575,200
22.585,204
22.595,211
22.605,231
22.615,242
22.625,223
22.635,200
22.645,207
22.655,190
22.665,192
22.675,189
22.685,206
22.695,216
22.705,183
22.715,206
22.725,223
22.735,211
22.745,198
22.755,234
22.765,216
22.775,205
22.785,184
22.795,199
22.805,224
22.815,227
22.825,199
22.835,213
22.845,207
22.855,207
22.865,217
22.875,197
22.885,225
22.895,214
22.905,204
22.915,197
22.925,200
22.935,225
22.945,221
22.955,202
22.965,199
22.975,192
22.985,228
22.995,203
23.005,200
23.015,215
23.025,208
23.035,220
23.045,215
23.055,189
23.065,210
23.075,228
23.085,220
23.095,207
23.105,227
23.115,177
23.125,223
23.135,190
23.145,238
23.155,206
23.165,189
23.175,209
23.185,211
23.195,201
23.205,193
23.215,220
23.225,188
23.235,171
23.245,218
23.255,205
23.265,219
23.275,189
23.285,199
23.295,196
23.305,193
23.315,181
23.325,205
23.335,185
23.345,200
23.355,192
23.365,184
23.375,195
23.385,180
23.395,216
23.405,215
23.415,202
23.425,209
23.435,219
23.445,196
23.455,214
23.465,204
23.475,243
23.485,207
23.495,186
23.505,197
23.515,178
23.525,213
23.535,184
23.545,181
23.555,198
23.565,188
23.575,216
23.585,164
23.595,193
23.605,198
23.615,201
23.625,182
23.635,226
23.645,204
23.655,198
23.665,212
23.675,200
23.685,209
23.695,194
23.705,202
23.715,220
23.725,183
23.735,196
23.745,191
23.755,200
23.765,188
23.775,230
23.785,197
23.795,200
23.805,197
23.815,200
23.825,216
23.835,209
23.845,210
23.855,201
23.865,171
23.875,198
23.885,199
23.895,176
23.905,181
23.915,184
23.925,206
23.935,172
23.945,181
23.955,199
23.965,186
23.975,173
23.985,203
23.995,196
24.005,188
24.015,213
24.025,170
24.035,185
24.045,210
24.055,231
24.065,200
24.075,208
24.085,186
24.095,217
24.105,227
24.115,168
24.125,211
24.135,198
24.145,212
24.155,195
24.165,198
24.175,185
24.185,215
24.195,207
24.205,178
24.215,194
24.225,197
24.235,203
24.245,199
24.255,187
24.265,176
24.275,214
24.285,190
24.295,159
24.305,184
24.315,184
24.325,190
24.335,191
24.345,178
24.355,242
24.365,240
24.375,260
24.385,246
24.395,246
24.405,227
24.415,251
24.425,277
24.435,273
24.445,265
24.455,303
24.465,329
24.475,277
24.485,276
24.495,328
24.505,310
24.515,305
24.525,232
24.535,261
24.545,225
24.555,234
24.565,240
24.575,197
24.585,235
24.595,199
24.605,166
24.615,172
24.625,215
24.635,188
24.645,192
24.655,182
24.665,162
24.675,181
24.685,184
24.695,192
24.705,177
24.715,213
24.725,181
24.735,189
24.745,198
24.755,165
24.765,200
24.775,180
24.785,175
24.795,157
24.805,183
24.815,191
24.825,163
24.835,167
24.845,177
24.855,164
24.865,188
24.875,183
24.885,177
24.895,194
24.905,205
24.915,150
24.925,203
24.935,177
24.945,179
24.955,161
24.965,199
24.975,203
24.985,168
24.995,169
25.005,175
25.015,197
25.025,154
25.035,171
25.045,174
25.055,170
25.065,176
25.075,196
25.085,176
25.095,182
25.105,201
25.115,188
25.125,183
25.135,205
25.145,168
25.155,220
25.165,168
25.175,156
25.185,168
25.195,200
25.205,173
25.215,165
25.225,175
25.235,182
25.245,185
25.255,162
25.265,186
25.275,182
25.285,194
25.295,169
25.305,165
25.315,152
25.325,185
25.335,167
25.345,167
25.355,176
25.365,176
25.375,184
25.385,184
25.395,192
25.405,165
25.415,143
25.425,184
25.435,193
25.445,155
25.455,169
25.465,160
25.475,159
25.485,180
25.495,144
25.505,167
25.515,207
25.525,166
25.535,163
25.545,194
25.555,168
25.565,164
25.575,167
25.585,172
25.595,196
25.605,201
25.615,169
25.625,184
25.635,164
25.645,171
25.655,167
25.665,200
25.675,187
25.685,196
25.695,150
25.705,171
25.715,155
25.725,174
25.735,171
25.745,173
25.755,169
25.765,194
25.775,160
25.785,183
25.795,159
25.805,150
25.815,159
25.825,162
25.835,145
25.845,182
25.855,153
25.865,173
25.875,151
25.885,164
25.895,185
25.905,168
25.915,184
25.925,165
25.935,168
25.945,187
25.955,158
25.965,160
25.975,152
25.985,149
25.995,159
26.005,164
26.015,164
26.025,171
26.035,181
26.045,200
26.055,168
26.065,185
26.075,207
26.085,158
26.095,165
26.105,165
26.115,155
26.125,166
26.135,180
26.145,153
26.155,176
26.165,170
26.175,171
26.185,170
26.195,190
26.205,178
26.215,156
26.225,182
26.235,170
26.245,160
26.255,156
26.265,179
26.275,162
26.285,172
26.295,168
26.305,157
26.315,161
26.325,140
26.335,145
26.345,172
26.355,155
26.365,155
26.375,174
26.385,167
26.395,166
26.405,174
26.415,161
26.425,176
26.435,192
26.445,155
26.455,179
26.465,189
26.475,160
26.485,157
26.495,168
26.505,160
26.515,160
26.525,167
26.535,157
26.545,156
26.555,142
26.565,160
26.575,175
26.585,153
26.595,162
26.605,146
26.615,168
26.625,163
26.635,139
26.645,177
26.655,153
26.665,189
26.675,175
26.685,179
26.695,165
26.705,143
26.715,177
26.725,154
26.735,171
26.745,152
26.755,182
26.765,171
26.775,156
26.785,162
26.795,164
26.805,163
26.815,183
26.825,172
26.835,164
26.845,165
26.855,170
26.865,169
26.875,166
26.885,143
26.895,159
26.905,180
26.915,143
26.925,150
26.935,147
26.945,187
26.955,176
26.965,181
26.975,174
26.985,155
26.995,149
27.005,150
27.015,163
27.025,153
27.035,153
27.045,140
27.055,156
27.065,165
27.075,145
27.085,133
27.095,160
27.105,176
27.115,163
27.125,166
27.135,146
27.145,155
27.155,148
27.165,151
27.175,164
27.185,140
27.195,150
27.205,180
27.215,157
27.225,173
27.235,186
27.245,160
27.255,159
27.265,154
27.275,161
27.285,165
27.295,140
27.305,138
27.315,151
27.325,151
27.335,142
27.345,149
27.355,153
27.365,163
27.375,155
27.385,167
27.395,154
27.405,173
27.415,131
27.425,152
27.435,138
27.445,161
27.455,149
27.465,145
27.475,145
27.485,151
27.495,156
27.505,146
27.515,149
27.525,157
27.535,131
27.545,160
27.555,138
27.565,146
27.575,147
27.585,129
27.595,132
27.605,145
27.615,149
27.625,137
27.635,142
27.645,144
27.655,131
27.665,167
27.675,167
27.685,131
27.695,149
27.705,138
27.715,139
27.725,169
27.735,151
27.745,143
27.755,131
27.765,149
27.775,142
27.785,167
27.795,150
27.805,135
27.815,151
27.825,164
27.835,143
27.845,142
27.855,165
27.865,110
27.875,147
27.885,133
27.895,142
27.905,159
27.915,147
27.925,144
27.935,147
27.945,135
27.955,163
27.965,138
27.975,142
27.985,156
27.995,142
28.005,134
28.015,133
28.025,153
28.035,131
28.045,165
28.055,141
28.065,156
28.075,123
28.085,142
28.095,144
28.105,139
28.115,134
28.125,145
28.135,148
28.145,139
28.155,164
28.165,127
28.175,146
28.185,154
28.195,156
28.205,143
28.215,150
28.225,146
28.235,170
28.245,162
28.255,151
28.265,143
28.275,162
28.285,138
28.295,165
28.305,163
28.315,154
28.325,160
28.335,163
28.345,201
28.355,210
28.365,193
28.375,206
28.385,198
28.395,183
28.405,166
28.415,217
28.425,174
28.435,208
28.445,178
28.455,186
28.465,175
28.475,144
28.485,165
28.495,149
28.505,165
28.515,162
28.525,123
28.535,161
28.545,145
28.555,135
28.565,145
28.575,132
28.585,165
28.595,140
28.605,156
28.615,148
28.625,129
28.635,142
28.645,155
28.655,154
28.665,142
28.675,143
28.685,136
28.695,115
28.705,145
28.715,143
28.725,125
28.735,135
28.745,142
28.755,152
28.765,146
28.775,163
28.785,140
28.795,168
28.805,144
28.815,134
28.825,149
28.835,129
28.845,147
28.855,147
28.865,150
28.875,161
28.885,154
28.895,159
28.905,145
28.915,181
28.925,169
28.935,163
28.945,132
28.955,154
28.965,156
28.975,134
28.985,131
28.995,159
29.005,145
29.015,147
29.025,163
29.035,141
29.045,134
29.055,130
29.065,115
29.075,127
29.085,132
29.095,135
29.105,122
29.115,163
29.125,143
29.135,135
29.145,142
29.155,131
29.165,150
29.175,139
29.185,134
29.195,142
29.205,110
29.215,126
29.225,125
29.235,124
29.245,145
29.255,145
29.265,143
29.275,147
29.285,123
29.295,126
29.305,123
29.315,132
29.325,125
29.335,132
29.345,159
29.355,114
29.365,145
29.375,149
29.385,132
29.395,152
29.405,131
29.415,132
29.425,125
29.435,139
29.445,127
29.455,146
29.465,116
29.475,125
29.485,140
29.495,130
29.505,115
29.515,123
29.525,145
29.535,137
29.545,119
29.555,132
29.565,128
29.575,138
29.585,134
29.595,123
29.605,131
29.615,138
29.625,139
29.635,129
29.645,140
29.655,139
29.665,130
29.675,129
29.685,129
29.695,131
29.705,142
29.715,140
29.725,138
29.735,145
29.745,130
29.755,148
29.765,119
29.775,127
29.785,121
29.795,121
29.805,117
29.815,130
29.825,119
29.835,122
29.845,110
29.855,120
29.865,142
29.875,121
29.885,120
29.895,139
29.905,118
29.915,109
29.925,133
29.935,111
29.945,123
29.955,130
29.965,128
29.975,113
29.985,122
29.995,112
30.005,120
30.015,131
30.025,126
30.035,121
30.045,114
30.055,114
30.065,111
30.075,131
30.085,127
30.095,105
30.105,125
30.115,127
30.125,128
30.135,124
30.145,134
30.155,121
30.165,109
30.175,111
30.185,122
30.195,121
30.205,120
30.215,128
30.225,117
30.235,122
30.245,125
30.255,119
30.265,113
30.275,127
30.285,149
30.295,137
30.305,131
30.315,118
30.325,128
30.335,142
30.345,148
30.355,122
30.365,131
30.375,114
30.385,128
30.395,116
30.405,142
30.415,131
30.425,119
30.435,124
30.445,140
30.455,118
30.465,108
30.475,144
30.485,139
30.495,114
30.505,113
30.515,122
30.525,121
30.535,114
30.545,128
30.555,129
30.565,116
30.575,127
30.585,137
30.595,106
30.605,152
30.615,123
30.625,120
30.635,103
30.645,118
30.655,129
30.665,98
30.675,130
30.685,129
30.695,117
30.705,119
30.715,111
30.725,105
30.735,128
30.745,121
30.755,120
30.765,136
30.775,131
30.785,113
30.795,115
30.805,121
30.815,117
30.825,133
30.835,125
30.845,123
30.855,129
30.865,107
30.875,117
30.885,108
30.895,126
30.905,132
30.915,121
30.925,117
30.935,136
30.945,102
30.955,116
30.965,126
30.975,125
30.985,122
30.995,105
31.005,129
31.015,117
31.025,112
31.035,106
31.045,101
31.055,128
31.065,108
31.075,138
31.085,108
31.095,128
31.105,95
31.115,128
31.125,106
31.135,135
31.145,120
31.155,107
31.165,130
31.175,118
31.185,128
31.195,128
31.205,99
31.215,125
31.225,134
31.235,101
31.245,106
31.255,125
31.265,122
31.275,116
31.285,114
31.295,100
31.305,117
31.315,118
31.325,113
31.335,112
31.345,121
31.355,91
31.365,114
31.375,102
31.385,111
31.395,104
31.405,112
31.415,121
31.425,106
31.435,124
31.445,116
31.455,115
31.465,121
31.475,116
31.485,117
31.495,104
31.505,119
31.515,111
31.525,135
31.535,123
31.545,110
31.555,137
31.565,111
31.575,113
31.585,100
31.595,134
31.605,111
31.615,111
31.625,118
31.635,91
31.645,105
31.655,98
31.665,105
31.675,112
31.685,104
31.695,107
31.705,119
31.715,109
31.725,103
31.735,116
31.745,116
31.755,119
31.765,100
31.775,127
31.785,104
31.795,120
31.805,118
31.815,117
31.825,122
31.835,141
31.845,109
31.855,107
31.865,122
31.875,119
31.885,103
31.895,110
31.905,98
31.915,111
31.925,129
31.935,111
31.945,120
31.955,111
31.965,129
31.975,118
31.985,91
31.995,126
32.005,129
32.015,118
32.025,118
32.035,124
32.045,102
32.055,120
32.065,118
32.075,124
32.085,106
32.095,118
32.105,117
32.115,96
32.125,101
32.135,103
32.145,120
32.155,137
32.165,120
32.175,123
32.185,117
32.195,110
32.205,108
32.215,120
32.225,133
32.235,115
32.245,130
32.255,110
32.265,116
32.275,102
32.285,112
32.295,105
32.305,101
32.315,92
32.325,140
32.335,117
32.345,110
32.355,121
32.365,108
32.375,127
32.385,107
32.395,112
32.405,112
32.415,134
32.425,111
32.435,106
32.445,119
32.455,123
32.465,111
32.475,101
32.485,120
32.495,114
32.505,108
32.515,99
32.525,87
32.535,119
32.545,120
32.555,116
32.565,132
32.575,112
32.585,112
32.595,113
32.605,107
32.615,116
32.625,96
32.635,129
32.645,114
32.655,125
32.665,106
32.675,107
32.685,133
32.695,116
32.705,125
32.715,129
32.725,122
32.735,112
32.745,117
32.755,117
32.765,112
32.775,132
32.785,120
32.795,130
32.805,109
32.815,113
32.825,113
32.835,120
32.845,127
32.855,121
32.865,119
32.875,112
32.885,124
32.895,134
32.905,119
32.915,106
32.925,114
32.935,129
32.945,142
32.955,106
32.965,135
32.975,113
32.985,123
32.995,132
33.005,133
33.015,113
33.025,112
33.035,148
33.045,156
33.055,115
33.065,123
33.075,121
33.085,100
33.095,139
33.105,120
33.115,110
33.125,136
33.135,122
33.145,104
33.155,141
33.165,128
33.175,134
33.185,126
33.195,132
33.205,125
33.215,145
33.225,127
33.235,146
33.245,148
33.255,130
33.265,137
33.275,151
33.285,140
33.295,144
33.305,135
33.315,134
33.325,136
33.335,144
33.345,159
33.355,146
33.365,149
33.375,181
33.385,184
33.395,188
33.405,177
33.415,212
33.425,229
33.435,191
33.445,197
33.455,184
33.465,196
33.475,199
33.485,191
33.495,179
33.505,164
33.515,179
33.525,166
33.535,152
33.545,133
33.555,138
33.565,156
33.575,148
33.585,149
33.595,141
33.605,140
33.615,154
33.625,150
33.635,146
33.645,125
33.655,107
33.665,141
33.675,156
33.685,128
33.695,128
33.705,151
33.715,113
33.725,131
33.735,124
33.745,111
33.755,134
33.765,121
33.775,132
33.785,113
33.795,132
33.805,134
33.815,124
33.825,128
33.835,128
33.845,124
33.855,114
33.865,114
33.875,119
33.885,106
33.895,117
33.905,118
33.915,126
33.925,125
33.935,119
33.945,125
33.955,123
33.965,129
33.975,116
33.985,116
33.995,139
34.005,114
34.015,115
34.025,124
34.035,145
34.045,104
34.055,107
34.065,129
34.075,105
34.085,125
34.095,136
34.105,119
34.115,126
34.125,101
34.135,96
34.145,130
34.155,102
34.165,98
34.175,130
34.185,116
34.195,104
34.205,107
34.215,107
34.225,121
34.235,96
34.245,124
34.255,140
34.265,94
34.275,104
34.285,101
34.295,96
34.305,99
34.315,111
34.325,103
34.335,123
34.345,132
34.355,103
34.365,109
34.375,121
34.385,99
34.395,103
34.405,113
34.415,120
34.425,117
34.435,122
34.445,103
34.455,107
34.465,94
34.475,99
34.485,106
34.495,100
34.505,122
34.515,117
34.525,106
34.535,92
34.545,114
34.555,134
34.565,96
34.575,87
34.585,109
34.595,97
34.605,119
34.615,121
34.625,139
34.635,117
34.645,125
34.655,135
34.665,106
34.675,104
34.685,108
34.695,102
34.705,108
34.715,134
34.725,112
34.735,134
34.745,133
34.755,119
34.765,127
34.775,135
34.785,120
34.795,122
34.805,115
34.815,122
34.825,118
34.835,135
34.845,116
34.855,125
34.865,114
34.875,114
34.885,130
34.895,114
34.905,131
34.915,137
34.925,134
34.935,123
34.945,126
34.955,139
34.965,119
34.975,135
34.985,129
34.995,129
35.005,125
35.015,138
35.025,133
35.035,109
35.045,131
35.055,135
35.065,131
35.075,123
35.085,140
35.095,126
35.105,105
35.115,120
35.125,135
35.135,113
35.145,101
35.155,132
35.165,107
35.175,111
35.185,128
35.195,110
35.205,114
35.215,104
35.225,124
35.235,122
35.245,101
35.255,138
35.265,110
35.275,110
35.285,112
35.295,112
35.305,101
35.315,107
35.325,131
35.335,115
35.345,121
35.355,126
35.365,128
35.375,120
35.385,102
35.395,121
35.405,113
35.415,99
35.425,111
35.435,99
35.445,94
35.455,109
35.465,105
35.475,92
35.485,118
35.495,118
35.505,98
35.515,116
35.525,120
35.535,118
35.545,105
35.555,139
35.565,108
35.575,111
35.585,104
35.595,113
35.605,114
35.615,139
35.625,98
35.635,103
35.645,125
35.655,116
35.665,126
35.675,127
35.685,114
35.695,133
35.705,120
35.715,138
35.725,133
35.735,126
35.745,148
35.755,122
35.765,126
35.775,154
35.785,148
35.795,144
35.805,170
35.815,183
35.825,200
35.835,278
35.845,345
35.855,400
35.865,515
35.875,601
35.885,601
35.895,626
35.905,556
35.915,458
35.925,406
35.935,349
35.945,351
35.955,402
35.965,370
35.975,356
35.985,361
35.995,331
36.005,332
36.015,229
36.025,210
36.035,153
36.045,150
36.055,140
36.065,121
36.075,139
36.085,111
36.095,109
36.105,111
36.115,127
36.125,108
36.135,133
36.145,128
36.155,151
36.165,96
36.175,100
36.185,109
36.195,121
36.205,129
36.215,100
36.225,129
36.235,122
36.245,121
36.255,124
36.265,117
36.275,126
36.285,123
36.295,114
36.305,124
36.315,126
36.325,116
36.335,125
36.345,110
36.355,112
36.365,138
36.375,116
36.385,138
36.395,133
36.405,118
36.415,118
36.425,139
36.435,131
36.445,123
36.455,122
36.465,113
36.475,122
36.485,117
36.495,129
36.505,126
36.515,124
36.525,123
36.535,119
36.545,135
36.555,145
36.565,122
36.575,130
36.585,128
36.595,130
36.605,118
36.615,157
36.625,128
36.635,149
36.645,146
36.655,147
36.665,139
36.675,150
36.685,143
36.695,163
36.705,156
36.715,165
36.725,162
36.735,143
36.745,151
36.755,154
36.765,178
36.775,169
36.785,159
36.795,157
36.805,158
36.815,143
36.825,172
36.835,158
36.845,179
36.855,173
36.865,167
36.875,156
36.885,169
36.895,175
36.905,182
36.915,170
36.925,158
36.935,203
36.945,155
36.955,194
36.965,183
36.975,176
36.985,152
36.995,196
37.005,168
37.015,166
37.025,173
37.035,160
37.045,161
37.055,164
37.065,167
37.075,178
37.085,153
37.095,183
37.105,143
37.115,159
37.125,164
37.135,141
37.145,143
37.155,167
37.165,137
37.175,129
37.185,139
37.195,136
37.205,143
37.215,135
37.225,148
37.235,131
37.245,131
37.255,138
37.265,99
37.275,124
37.285,126
37.295,142
37.305,128
37.315,117
37.325,104
37.335,132
37.345,112
37.355,115
37.365,117
37.375,114
37.385,114
37.395,127
37.405,122
37.415,131
37.425,110
37.435,122
37.445,130
37.455,119
37.465,120
37.475,107
37.485,119
37.495,125
37.505,102
37.515,116
37.525,122
37.535,97
37.545,125
37.555,121
37.565,115
37.575,100
37.585,122
37.595,94
37.605,104
37.615,92
37.625,99
37.635,91
37.645,89
37.655,104
37.665,107
37.675,108
37.685,104
37.695,99
37.705,91
37.715,111
37.725,85
37.735,101
37.745,88
37.755,106
37.765,106
37.775,106
37.785,98
37.795,97
37.805,86
37.815,100
37.825,96
37.835,113
37.845,96
37.855,104
37.865,86
37.875,104
37.885,80
37.895,81
37.905,83
37.915,78
37.925,94
37.935,103
37.945,116
37.955,119
37.965,88
37.975,89
37.985,102
37.995,113
38.005,102
38.015,80
38.025,95
38.035,96
38.045,85
38.055,99
38.065,65
38.075,89
38.085,82
38.095,88
38.105,79
38.115,103
38.125,98
38.135,80
38.145,94
38.155,109
38.165,98
38.175,70
38.185,94
38.195,97
38.205,99
38.215,94
38.225,87
38.235,89
38.245,96
38.255,86
38.265,95
38.275,100
38.285,100
38.295,100
38.305,114
38.315,91
38.325,94
38.335,86
38.345,112
38.355,85
38.365,85
38.375,104
38.385,89
38.395,90
38.405,84
38.415,95
38.425,89
38.435,83
38.445,87
38.455,77
38.465,81
38.475,103
38.485,90
38.495,88
38.505,77
38.515,83
38.525,87
38.535,99
38.545,79
38.555,98
38.565,104
38.575,78
38.585,92
38.595,94
38.605,91
38.615,72
38.625,75
38.635,96
38.645,100
38.655,100
38.665,88
38.675,99
38.685,115
38.695,87
38.705,74
38.715,84
38.725,94
38.735,103
38.745,98
38.755,79
38.765,88
38.775,107
38.785,106
38.795,91
38.805,82
38.815,89
38.825,98
38.835,101
38.845,99
38.855,80
38.865,77
38.875,84
38.885,93
38.895,99
38.905,85
38.915,90
38.925,94
38.935,92
38.945,104
38.955,83
38.965,98
38.975,91
38.985,95
38.995,106
39.005,104
39.015,89
39.025,92
39.035,96
39.045,85
39.055,91
39.065,86
39.075,77
39.085,101
39.095,110
39.105,93
39.115,105
39.125,91
39.135,91
39.145,101
39.155,90
39.165,85
39.175,93
39.185,86
39.195,98
39.205,93
39.215,105
39.225,91
39.235,92
39.245,94
39.255,96
39.265,88
39.275,97
39.285,92
39.295,88
39.305,99
39.315,97
39.325,83
39.335,94
39.345,88
39.355,94
39.365,80
39.375,90
39.385,96
39.395,77
39.405,107
39.415,77
39.425,86
39.435,98
39.445,102
39.455,100
39.465,92
39.475,106
39.485,120
39.495,123
39.505,127
39.515,122
39.525,132
39.535,120
39.545,100
39.555,95
39.565,92
39.575,105
39.585,93
39.595,82
39.605,109
39.615,95
39.625,87
39.635,113
39.645,105
39.655,97
39.665,97
39.675,98
39.685,107
39.695,103
39.705,99
39.715,92
39.725,114
39.735,79
39.745,79
39.755,77
39.765,84
39.775,100
39.785,94
39.795,85
39.805,81
39.815,109
39.825,96
39.835,102
39.845,96
39.855,105
39.865,87
39.875,79
39.885,95
39.895,96
39.905,91
39.915,106
39.925,82
39.935,88
39.945,76
39.955,72
39.965,95
39.975,105
39.985,100
39.995,102
40.005,85
40.015,112
40.025,91
40.035,96
40.045,96
40.055,95
40.065,102
40.075,117
40.085,106
40.095,98
40.105,101
40.115,79
40.125,106
40.135,97
40.145,104
40.155,93
40.165,99
40.175,101
40.185,95
40.195,89
40.205,111
40.215,109
40.225,134
40.235,115
40.245,98
40.255,104
40.265,90
40.275,115
40.285,108
40.295,87
40.305,95
40.315,98
40.325,115
40.335,110
40.345,91
40.355,101
40.365,113
40.375,79
40.385,98
40.395,96
40.405,84
40.415,113
40.425,96
40.435,103
40.445,103
40.455,102
40.465,94
40.475,126
40.485,99
40.495,116
40.505,107
40.515,113
40.525,111
40.535,96
40.545,94
40.555,105
40.565,99
40.575,102
40.585,110
40.595,97
40.605,100
40.615,91
40.625,93
40.635,71
40.645,80
40.655,106
40.665,103
40.675,103
40.685,95
40.695,96
40.705,97
40.715,102
40.725,83
40.735,79
40.745,101
40.755,78
40.765,94
40.775,96
40.785,82
40.795,86
40.805,93
40.815,102
40.825,92
40.835,106
40.845,83
40.855,103
40.865,103
40.875,79
40.885,89
40.895,98
40.905,91
40.915,96
40.925,93
40.935,96
40.945,96
40.955,90
40.965,75
40.975,97
40.985,97
40.995,95
41.005,91
41.015,84
41.025,93
41.035,115
41.045,93
41.055,101
41.065,126
41.075,122
41.085,116
41.095,101
41.105,113
41.115,105
41.125,98
41.135,102
41.145,96
41.155,92
41.165,115
41.175,120
41.185,117
41.195,120
41.205,114
41.215,126
41.225,115
41.235,99
41.245,102
41.255,104
41.265,98
41.275,97
41.285,106
41.295,106
41.305,99
41.315,110
41.325,101
41.335,80
41.345,99
41.355,95
41.365,94
41.375,103
41.385,96
41.395,103
41.405,90
41.415,112
41.425,91
41.435,111
41.445,105
41.455,101
41.465,91
41.475,105
41.485,82
41.495,105
41.505,90
41.515,103
41.525,87
41.535,93
41.545,89
41.555,112
41.565,89
41.575,115
41.585,85
41.595,105
41.605,97
41.615,96
41.625,84
41.635,93
41.645,84
41.655,94
41.665,90
41.675,89
41.685,94
41.695,101
41.705,102
41.715,92
41.725,96
41.735,84
41.745,87
41.755,85
41.765,107
41.775,69
41.785,93
41.795,76
41.805,84
41.815,83
41.825,90
41.835,88
41.845,103
41.855,95
41.865,95
41.875,102
41.885,75
41.895,98
41.905,70
41.915,81
41.925,77
41.935,83
41.945,82
41.955,78
41.965,87
41.975,102
41.985,99
41.995,83
42.005,97
42.015,79
42.025,78
42.035,75
42.045,94
42.055,98
42.065,108
42.075,98
42.085,74
42.095,95
42.105,97
42.115,90
42.125,91
42.135,85
42.145,90
42.155,87
42.165,100
42.175,93
42.185,86
42.195,89
42.205,87
42.215,95
42.225,90
42.235,80
42.245,83
42.255,92
42.265,94
42.275,86
42.285,81
42.295,62
42.305,85
42.315,95
42.325,89
42.335,77
42.345,71
42.355,87
42.365,86
42.375,74
42.385,84
42.395,73
42.405,73
42.415,86
42.425,75
42.435,77
42.445,70
42.455,83
42.465,70
42.475,82
42.485,86
42.495,82
42.505,82
42.515,75
42.525,78
42.535,73
42.545,80
42.555,76
42.565,81
42.575,66
42.585,95
42.595,82
42.605,78
42.615,66
42.625,90
42.635,79
42.645,70
42.655,87
42.665,77
42.675,85
42.685,80
42.695,79
42.705,77
42.715,79
42.725,74
42.735,78
42.745,81
42.755,72
42.765,78
42.775,93
42.785,81
42.795,67
42.805,59
42.815,70
42.825,75
42.835,74
42.845,95
42.855,87
42.865,88
42.875,76
42.885,68
42.895,81
42.905,77
42.915,76
42.925,86
42.935,83
42.945,83
42.955,82
42.965,88
42.975,75
42.985,86
42.995,91
43.005,83
43.015,89
43.025,106
43.035,88
43.045,94
43.055,79
43.065,84
43.075,75
43.085,87
43.095,67
43.105,72
43.115,74
43.125,75
43.135,86
43.145,66
43.155,76
43.165,70
43.175,63
43.185,86
43.195,79
43.205,75
43.215,81
43.225,98
43.235,81
43.245,90
43.255,71
43.265,82
43.275,90
43.285,96
43.295,84
43.305,87
43.315,81
43.325,67
43.335,80
43.345,101
43.355,82
43.365,73
43.375,86
43.385,77
43.395,98
43.405,89
43.415,86
43.425,87
43.435,83
43.445,70
43.455,80
43.465,85
43.475,75
43.485,87
43.495,77
43.505,78
43.515,85
43.525,80
43.535,75
43.545,80
43.555,67
43.565,89
43.575,104
43.585,87
43.595,87
43.605,70
43.615,86
43.625,74
43.635,77
43.645,82
43.655,93
43.665,74
43.675,77
43.685,60
43.695,89
43.705,64
43.715,83
43.725,91
43.735,93
43.745,76
43.755,76
43.765,84
43.775,68
43.785,82
43.795,87
43.805,78
43.815,73
43.825,75
43.835,81
43.845,81
43.855,74
43.865,83
43.875,87
43.885,87
43.895,74
43.905,63
43.915,71
43.925,75
43.935,84
43.945,79
43.955,78
43.965,68
43.975,75
43.985,71
43.995,72
44.005,65
44.015,86
44.025,89
44.035,82
44.045,65
44.055,79
44.065,68
44.075,79
44.085,99
44.095,88
44.105,84
44.115,92
44.125,87
44.135,88
44.145,79
44.155,80
44.165,69
44.175,86
44.185,78
44.195,83
44.205,71
44.215,77
44.225,71
44.235,71
44.245,86
44.255,71
44.265,89
44.275,82
44.285,63
44.295,70
44.305,74
44.315,81
44.325,71
44.335,75
44.345,84
44.355,93
44.365,71
44.375,75
44.385,79
44.395,76
44.405,83
44.415,76
44.425,80
44.435,84
44.445,71
44.455,76
44.465,70
44.475,65
44.485,89
44.495,72
44.505,64
44.515,65
44.525,64
44.535,73
44.545,79
44.555,91
44.565,93
44.575,87
44.585,82
44.595,75
44.605,76
44.615,92
44.625,96
44.635,83
44.645,77
44.655,90
44.665,81
44.675,77
44.685,91
44.695,57
44.705,62
44.715,80
44.725,87
44.735,60
44.745,82
44.755,79
44.765,78
44.775,69
44.785,74
44.795,68
44.805,81
44.815,81
44.825,76
44.835,67
44.845,77
44.855,82
44.865,72
44.875,80
44.885,96
44.895,70
44.905,74
44.915,80
44.925,72
44.935,67
44.945,73
44.955,82
44.965,89
44.975,86
44.985,84
44.995,86
45.005,76
45.015,84
45.025,94
45.035,86
45.045,89
45.055,84
45.065,72
45.075,85
45.085,89
45.095,92
45.105,79
45.115,82
45.125,75
45.135,91
45.145,85
45.155,83
45.165,83
45.175,73
45.185,77
45.195,65
45.205,70
45.215,85
45.225,79
45.235,77
45.245,70
45.255,81
45.265,67
45.275,91
45.285,81
45.295,77
45.305,80
45.315,72
45.325,73
45.335,71
45.345,70
45.355,74
45.365,91
45.375,64
45.385,79
45.395,73
45.405,79
45.415,74
45.425,85
45.435,83
45.445,89
45.455,91
45.465,78
45.475,92
45.485,83
45.495,77
45.505,73
45.515,80
45.525,69
45.535,76
45.545,77
45.555,76
45.565,70
45.575,84
45.585,83
45.595,104
45.605,89
45.615,69
45.625,80
45.635,74
45.645,85
45.655,61
45.665,86
45.675,89
45.685,75
45.695,78
45.705,84
45.715,84
45.725,83
45.735,75
45.745,73
45.755,89
45.765,71
45.775,94
45.785,85
45.795,86
45.805,67
45.815,80
45.825,75
45.835,78
45.845,82
45.855,75
45.865,84
45.875,81
45.885,63
45.895,87
45.905,78
45.915,70
45.925,88
45.935,81
45.945,83
45.955,83
45.965,70
45.975,91
45.985,69
45.995,80
46.005,83
46.015,85
46.025,78
46.035,88
46.045,77
46.055,72
46.065,73
46.075,77
46.085,84
46.095,75
46.105,75
46.115,76
46.125,86
46.135,66
46.145,89
46.155,67
46.165,77
46.175,74
46.185,83
46.195,67
46.205,57
46.215,96
46.225,64
46.235,87
46.245,77
46.255,72
46.265,70
46.275,76
46.285,88
46.295,60
46.305,67
46.315,75
46.325,92
46.335,75
46.345,74
46.355,73
46.365,77
46.375,82
46.385,73
46.395,91
46.405,76
46.415,60
46.425,75
46.435,96
46.445,58
46.455,74
46.465,92
46.475,66
46.485,83
46.495,83
46.505,69
46.515,83
46.525,77
46.535,69
46.545,70
46.555,65
46.565,64
46.575,73
46.585,69
46.595,84
46.605,71
46.615,89
46.625,82
46.635,90
46.645,75
46.655,70
46.665,66
46.675,84
46.685,90
46.695,82
46.705,69
46.715,69
46.725,65
46.735,69
46.745,70
46.755,85
46.765,91
46.775,74
46.785,84
46.795,93
46.805,102
46.815,65
46.825,85
46.835,79
46.845,81
46.855,74
46.865,90
46.875,77
46.885,76
46.895,78
46.905,68
46.915,79
46.925,85
46.935,83
46.945,77
46.955,93
46.965,82
46.975,70
46.985,74
46.995,76
47.005,88
47.015,90
47.025,79
47.035,79
47.045,65
47.055,87
47.065,77
47.075,82
47.085,84
47.095,75
47.105,85
47.115,88
47.125,76
47.135,86
47.145,73
47.155,90
47.165,67
47.175,75
47.185,75
47.195,64
47.205,88
47.215,93
47.225,70
47.235,76
47.245,76
47.255,76
47.265,89
47.275,64
47.285,95
47.295,72
47.305,90
47.315,77
47.325,81
47.335,92
47.345,96
47.355,79
47.365,88
47.375,79
47.385,75
47.395,79
47.405,79
47.415,78
47.425,67
47.435,87
47.445,93
47.455,82
47.465,78
47.475,81
47.485,81
47.495,63
47.505,80
47.515,75
47.525,86
47.535,77
47.545,78
47.555,83
47.565,87
47.575,77
47.585,84
47.595,84
47.605,81
47.615,86
47.625,81
47.635,88
47.645,88
47.655,91
47.665,80
47.675,88
47.685,73
47.695,79
47.705,80
47.715,73
47.725,84
47.735,90
47.745,82
47.755,79
47.765,83
47.775,78
47.785,78
47.795,83
47.805,79
47.815,80
47.825,82
47.835,98
47.845,84
47.855,69
47.865,75
47.875,62
47.885,75
47.895,75
47.905,88
47.915,75
47.925,69
47.935,73
47.945,74
47.955,69
47.965,78
47.975,77
47.985,60
47.995,99
48.005,65
48.015,77
48.025,80
48.035,73
48.045,67
48.055,80
48.065,90
48.075,70
48.085,91
48.095,58
48.105,83
48.115,83
48.125,80
48.135,79
48.145,74
48.155,73
48.165,66
48.175,84
48.185,77
48.195,87
48.205,77
48.215,85
48.225,71
48.235,82
48.245,84
48.255,69
48.265,77
48.275,86
48.285,67
48.295,80
48.305,69
48.315,73
48.325,73
48.335,81
48.345,68
48.355,79
48.365,85
48.375,70
48.385,82
48.395,73
48.405,75
48.415,79
48.425,68
48.435,69
48.445,87
48.455,67
48.465,64
48.475,85
48.485,59
48.495,61
48.505,73
48.515,61
48.525,85
48.535,66
48.545,70
48.555,67
48.565,89
48.575,83
48.585,85
48.595,75
48.605,85
48.615,71
48.625,77
48.635,68
48.645,83
48.655,73
48.665,90
48.675,74
48.685,59
48.695,75
48.705,88
48.715,82
48.725,78
48.735,73
48.745,74
48.755,68
48.765,75
48.775,99
48.785,79
48.795,72
48.805,69
48.815,74
48.825,78
48.835,60
48.845,65
48.855,74
48.865,69
48.875,81
48.885,92
48.895,73
48.905,62
48.915,70
48.925,78
48.935,69
48.945,86
48.955,70
48.965,87
48.975,84
48.985,68
48.995,91
49.005,66
49.015,81
49.025,71
49.035,74
49.045,77
49.055,76
49.065,78
49.075,91
49.085,64
49.095,72
49.105,83
49.115,73
49.125,89
49.135,80
49.145,82
49.155,84
49.165,74
49.175,71
49.185,63
49.195,77
49.205,85
49.215,63
49.225,77
49.235,70
49.245,88
49.255,85
49.265,73
49.275,85
49.285,78
49.295,99
49.305,89
49.315,86
49.325,90
49.335,77
49.345,69
49.355,85
49.365,69
49.375,71
49.385,81
49.395,76
49.405,66
49.415,68
49.425,80
49.435,76
49.445,83
49.455,62
49.465,92
49.475,83
49.485,89
49.495,81
49.505,77
49.515,65
49.525,85
49.535,75
49.545,84
49.555,71
49.565,74
49.575,65
49.585,79
49.595,74
49.605,80
49.615,87
49.625,88
49.635,63
49.645,76
49.655,77
49.665,91
49.675,105
49.685,68
49.695,101
49.705,88
49.715,70
49.725,77
49.735,86
49.745,80
49.755,98
49.765,68
49.775,95
49.785,107
49.795,102
49.805,88
49.815,92
49.825,81
49.835,93
49.845,93
49.855,85
49.865,91
49.875,89
49.885,78
49.895,90
49.905,67
49.915,82
49.925,87
49.935,93
49.945,62
49.955,72
49.965,60
49.975,84
49.985,89
49.995,78
50.005,91
50.015,84
50.025,65
50.035,66
50.045,78
50.055,83
50.065,89
50.075,70
50.085,87
50.095,75
50.105,68
50.115,85
50.125,72
50.135,69
50.145,86
50.155,85
50.165,80
50.175,91
50.185,77
50.195,69
50.205,83
50.215,66
50.225,74
50.235,64
50.245,78
50.255,72
50.265,82
50.275,66
50.285,67
50.295,71
50.305,82
50.315,74
50.325,70
50.335,69
50.345,62
50.355,95
50.365,93
50.375,73
50.385,66
50.395,90
50.405,75
50.415,77
50.425,77
50.435,90
50.445,76
50.455,87
50.465,78
50.475,83
50.485,75
50.495,64
50.505,78
50.515,73
50.525,64
50.535,61
50.545,76
50.555,68
50.565,66
50.575,80
50.585,81
50.595,83
50.605,91
50.615,73
50.625,71
50.635,78
50.645,82
50.655,81
50.665,74
50.675,84
50.685,78
50.695,72
50.705,75
50.715,71
50.725,58
50.735,87
50.745,89
50.755,92
50.765,91
50.775,83
50.785,87
50.795,81
50.805,79
50.815,69
50.825,65
50.835,95
50.845,74
50.855,79
50.865,96
50.875,98
50.885,97
50.895,92
50.905,91
50.915,105
50.925,77
50.935,78
50.945,85
50.955,74
50.965,74
50.975,97
50.985,86
50.995,77
51.005,84
51.015,74
51.025,84
51.035,79
51.045,79
51.055,93
51.065,86
51.075,94
51.085,99
51.095,80
51.105,90
51.115,80
51.125,85
51.135,96
51.145,93
51.155,85
51.165,80
51.175,81
51.185,87
51.195,69
51.205,71
51.215,86
51.225,73
51.235,75
51.245,94
51.255,83
51.265,79
51.275,80
51.285,79
51.295,96
51.305,75
51.315,84
51.325,64
51.335,90
51.345,91
51.355,78
51.365,82
51.375,61
51.385,71
51.395,94
51.405,73
51.415,77
51.425,64
51.435,66
51.445,93
51.455,84
51.465,79
51.475,92
51.485,74
51.495,74
51.505,68
51.515,84
51.525,87
51.535,79
51.545,84
51.555,80
51.565,79
51.575,75
51.585,58
51.595,87
51.605,77
51.615,67
51.625,91
51.635,84
51.645,79
51.655,88
51.665,86
51.675,67
51.685,72
51.695,81
51.705,85
51.715,78
51.725,69
51.735,88
51.745,87
51.755,78
51.765,59
51.775,86
51.785,82
51.795,72
51.805,88
51.815,80
51.825,71
51.835,78
51.845,75
51.855,84
51.865,88
51.875,72
51.885,89
51.895,73
51.905,62
51.915,81
51.925,66
51.935,62
51.945,87
51.955,80
51.965,68
51.975,85
51.985,66
51.995,66
52.005,82
52.015,74
52.025,78
52.035,76
52.045,80
52.055,84
52.065,84
52.075,85
52.085,71
52.095,65
52.105,68
52.115,75
52.125,65
52.135,78
52.145,73
52.155,73
52.165,92
52.175,73
52.185,92
52.195,89
52.205,84
52.215,75
52.225,86
52.235,87
52.245,95
52.255,76
52.265,62
52.275,89
52.285,72
52.295,76
52.305,60
52.315,76
52.325,66
52.335,77
52.345,73
52.355,89
52.365,64
52.375,84
52.385,87
52.395,72
52.405,88
52.415,97
52.425,79
52.435,74
52.445,70
52.455,87
52.465,78
52.475,73
52.485,70
52.495,83
52.505,75
52.515,82
52.525,78
52.535,82
52.545,71
52.555,86
52.565,72
52.575,71
52.585,71
52.595,72
52.605,84
52.615,70
52.625,79
52.635,72
52.645,89
52.655,92
52.665,81
52.675,79
52.685,93
52.695,73
52.705,88
52.715,94
52.725,71
52.735,87
52.745,77
52.755,73
52.765,81
52.775,82
52.785,94
52.795,93
52.805,72
52.815,80
52.825,79
52.835,71
52.845,96
52.855,106
52.865,87
52.875,74
52.885,83
52.895,64
52.905,85
52.915,68
52.925,81
52.935,110
52.945,86
52.955,85
52.965,79
52.975,68
52.985,96
52.995,81
53.005,79
53.015,83
53.025,84
53.035,90
53.045,74
53.055,97
53.065,82
53.075,73
53.085,90
53.095,84
53.105,80
53.115,79
53.125,88
53.135,92
53.145,87
53.155,95
53.165,76
53.175,109
53.185,96
53.195,93
53.205,95
53.215,104
53.225,99
53.235,101
53.245,112
53.255,86
53.265,112
53.275,102
53.285,95
53.295,108
53.305,104
53.315,90
53.325,112
53.335,101
53.345,100
53.355,109
53.365,112
53.375,109
53.385,104
53.395,95
53.405,99
53.415,108
53.425,128
53.435,102
53.445,99
53.455,108
53.465,95
53.475,108
53.485,113
53.495,108
53.505,109
53.515,107
53.525,98
53.535,109
53.545,111
53.555,103
53.565,113
53.575,107
53.585,107
53.595,115
53.605,101
53.615,115
53.625,110
53.635,99
53.645,102
53.655,115
53.665,103
53.675,106
53.685,101
53.695,113
53.705,126
53.715,119
53.725,97
53.735,103
53.745,117
53.755,101
53.765,97
53.775,102
53.785,96
53.795,89
53.805,83
53.815,108
53.825,89
53.835,97
53.845,92
53.855,98
53.865,99
53.875,95
53.885,101
53.895,87
53.905,99
53.915,80
53.925,96
53.935,92
53.945,102
53.955,92
53.965,83
53.975,87
53.985,100
53.995,104
54.005,80
54.015,88
54.025,90
54.035,87
54.045,96
54.055,104
54.065,64
54.075,99
54.085,98
54.095,81
54.105,91
54.115,94
54.125,88
54.135,85
54.145,90
54.155,80
54.165,93
54.175,83
54.185,99
54.195,99
54.205,111
54.215,88
54.225,93
54.235,110
54.245,119
54.255,96
54.265,91
54.275,91
54.285,110
54.295,87
54.305,106
54.315,99
54.325,110
54.335,100
54.345,113
54.355,113
54.365,106
54.375,83
54.385,87
54.395,100
54.405,83
54.415,107
54.425,109
54.435,97
54.445,99
54.455,87
54.465,82
54.475,90
54.485,95
54.495,86
54.505,84
54.515,78
54.525,82
54.535,85
54.545,84
54.555,87
54.565,92
54.575,94
54.585,88
54.595,79
54.605,90
54.615,83
54.625,84
54.635,74
54.645,69
54.655,92
54.665,81
54.675,77
54.685,77
54.695,87
54.705,82
54.715,87
54.725,87
54.735,68
54.745,83
54.755,81
54.765,64
54.775,86
54.785,82
54.795,82
54.805,86
54.815,81
54.825,75
54.835,92
54.845,79
54.855,85
54.865,97
54.875,67
54.885,80
54.895,72
54.905,76
54.915,61
54.925,79
54.935,78
54.945,61
54.955,86
54.965,77
54.975,69
54.985,71
54.995,86
55.005,88
55.015,86
55.025,70
55.035,72
55.045,94
55.055,87
55.065,95
55.075,73
55.085,77
55.095,65
55.105,72
55.115,89
55.125,86
55.135,93
55.145,67
55.155,85
55.165,77
55.175,93
55.185,76
55.195,80
55.205,72
55.215,86
55.225,69
55.235,70
55.245,71
55.255,86
55.265,94
55.275,54
55.285,68
55.295,66
55.305,62
55.315,78
55.325,70
55.335,59
55.345,78
55.355,67
55.365,66
55.375,77
55.385,84
55.395,94
55.405,62
55.415,75
55.425,73
55.435,84
55.445,69
55.455,83
55.465,75
55.475,80
55.485,62
55.495,66
55.505,77
55.515,79
55.525,64
55.535,74
55.545,74
55.555,77
55.565,76
55.575,92
55.585,63
55.595,72
55.605,80
55.615,77
55.625,83
55.635,78
55.645,69
55.655,73
55.665,59
55.675,74
55.685,82
55.695,68
55.705,83
55.715,90
55.725,70
55.735,57
55.745,74
55.755,73
55.765,79
55.775,85
55.785,69
55.795,72
55.805,64
55.815,75
55.825,67
55.835,74
55.845,74
55.855,67
55.865,57
55.875,73
55.885,73
55.895,70
55.905,67
55.915,79
55.925,74
55.935,91
55.945,65
55.955,55
55.965,67
55.975,60
55.985,72
55.995,61
56.005,52
56.015,76
56.025,85
56.035,76
56.045,73
56.055,87
56.065,75
56.075,77
56.085,79
56.095,79
56.105,59
56.115,78
56.125,65
56.135,71
56.145,91
56.155,87
56.165,72
56.175,79
56.185,61
56.195,58
56.205,59
56.215,71
56.225,82
56.235,59
56.245,81
56.255,62
56.265,68
56.275,56
56.285,83
56.295,69
56.305,82
56.315,73
56.325,61
56.335,80
56.345,75
56.355,65
56.365,90
56.375,74
56.385,69
56.395,68
56.405,71
56.415,77
56.425,77
56.435,76
56.445,69
56.455,81
56.465,84
56.475,65
56.485,71
56.495,71
56.505,69
56.515,76
56.525,77
56.535,70
56.545,78
56.555,56
56.565,79
56.575,74
56.585,82
56.595,86
56.605,84
56.615,77
56.625,82
56.635,69
56.645,61
56.655,62
56.665,70
56.675,79
56.685,57
56.695,71
56.705,80
56.715,81
56.725,76
56.735,76
56.745,85
56.755,76
56.765,59
56.775,86
56.785,74
56.795,89
56.805,73
56.815,76
56.825,79
56.835,93
56.845,71
56.855,63
56.865,68
56.875,63
56.885,77
56.895,69
56.905,66
56.915,75
56.925,72
56.935,88
56.945,66
56.955,84
56.965,91
56.975,78
56.985,100
56.995,76
57.005,56
57.015,87
57.025,86
57.035,77
57.045,77
57.055,92
57.065,82
57.075,88
57.085,85
57.095,91
57.105,75
57.115,70
57.125,73
57.135,80
57.145,80
57.155,77
57.165,76
57.175,75
57.185,73
57.195,68
57.205,72
57.215,80
57.225,78
57.235,57
57.245,82
57.255,87
57.265,64
57.275,68
57.285,73
57.295,103
57.305,76
57.315,75
57.325,96
57.335,75
57.345,77
57.355,64
57.365,85
57.375,77
57.385,78
57.395,69
57.405,66
57.415,95
57.425,90
57.435,77
57.445,74
57.455,78
57.465,89
57.475,71
57.485,86
57.495,88
57.505,70
57.515,78
57.525,80
57.535,75
57.545,71
57.555,82
57.565,68
57.575,87
57.585,87
57.595,79
57.605,76
57.615,81
57.625,85
57.635,69
57.645,78
57.655,83
57.665,72
57.675,81
57.685,95
57.695,82
57.705,93
57.715,82
57.725,108
57.735,107
57.745,98
57.755,82
57.765,96
57.775,87
57.785,80
57.795,85
57.805,98
57.815,90
57.825,98
57.835,97
57.845,116
57.855,113
57.865,97
57.875,109
57.885,110
57.895,110
57.905,104
57.915,103
57.925,116
57.935,79
57.945,91
57.955,91
57.965,85
57.975,75
57.985,95
57.995,97
58.005,90
58.015,86
58.025,98
58.035,98
58.045,83
58.055,100
58.065,66
58.075,98
58.085,65
58.095,79
58.105,71
58.115,73
58.125,77
58.135,79
58.145,76
58.155,72
58.165,74
58.175,74
58.185,86
58.195,86
58.205,61
58.215,59
58.225,86
58.235,65
58.245,75
58.255,82
58.265,83
58.275,63
58.285,77
58.295,67
58.305,72
58.315,89
58.325,78
58.335,75
58.345,71
58.355,70
58.365,78
58.375,79
58.385,78
58.395,81
58.405,83
58.415,86
58.425,77
58.435,69
58.445,79
58.455,68
58.465,89
58.475,68
58.485,65
58.495,78
58.505,73
58.515,79
58.525,89
58.535,94
58.545,85
58.555,71
58.565,86
58.575,79
58.585,86
58.595,72
58.605,92
58.615,73
58.625,73
58.635,79
58.645,81
58.655,81
58.665,66
58.675,92
58.685,78
58.695,72
58.705,90
58.715,85
58.725,70
58.735,84
58.745,82
58.755,78
58.765,97
58.775,81
58.785,78
58.795,87
58.805,86
58.815,72
58.825,78
58.835,78
58.845,82
58.855,73
58.865,75
58.875,62
58.885,67
58.895,94
58.905,78
58.915,103
58.925,103
58.935,68
58.945,72
58.955,78
58.965,79
58.975,85
58.985,100
58.995,100
59.005,81
59.015,96
59.025,85
59.035,90
59.045,90
59.055,83
59.065,96
59.075,86
59.085,100
59.095,89
59.105,102
59.115,76
59.125,65
59.135,97
59.145,103
59.155,100
59.165,95
59.175,100
59.185,85
59.195,86
59.205,97
59.215,83
59.225,86
59.235,88
59.245,89
59.255,90
59.265,103
59.275,92
59.285,80
59.295,83
59.305,97
59.315,82
59.325,85
59.335,90
59.345,80
59.355,97
59.365,108
59.375,91
59.385,85
59.395,91
59.405,84
59.415,94
59.425,84
59.435,81
59.445,96
59.455,65
59.465,86
59.475,81
59.485,108
59.495,105
59.505,108
59.515,104
59.525,77
59.535,78
59.545,89
59.555,85
59.565,89
59.575,95
59.585,84
59.595,93
59.605,82
59.615,92
59.625,74
59.635,87
59.645,104
59.655,87
59.665,80
59.675,99
59.685,103
59.695,84
59.705,78
59.715,99
59.725,93
59.735,78
59.745,67
59.755,70
59.765,85
59.775,75
59.785,87
59.795,80
59.805,86
59.815,89
59.825,85
59.835,72
59.845,84
59.855,78
59.865,78
59.875,69
59.885,88
59.895,88
59.905,73
59.915,84
59.925,89
59.935,83
59.945,64
59.955,79
59.965,71
59.975,71
59.985,82
59.995,89
60.005,81
60.015,82
60.025,67
60.035,81
60.045,64
60.055,70
60.065,89
60.075,78
60.085,62
60.095,75
60.105,83
60.115,88
60.125,71
60.135,73
60.145,77
60.155,88
60.165,60
60.175,68
60.185,67
60.195,86
60.205,65
60.215,77
60.225,76
60.235,77
60.245,86
60.255,90
60.265,81
60.275,68
60.285,83
60.295,67
60.305,76
60.315,83
60.325,82
60.335,76
60.345,85
60.355,85
60.365,70
60.375,70
60.385,81
60.395,65
60.405,73
60.415,85
60.425,72
60.435,77
60.445,85
60.455,60
60.465,88
60.475,78
60.485,76
60.495,72
60.505,76
60.515,76
60.525,76
60.535,70
60.545,72
60.555,87
60.565,69
60.575,78
60.585,89
60.595,82
60.605,76
60.615,58
60.625,77
60.635,79
60.645,80
60.655,63
60.665,75
60.675,79
60.685,76
60.695,71
60.705,72
60.715,76
60.725,80
60.735,82
60.745,77
60.755,101
60.765,87
60.775,89
60.785,85
60.795,83
60.805,87
60.815,69
60.825,82
60.835,85
60.845,81
60.855,88
60.865,90
60.875,69
60.885,69
60.895,65
60.905,83
60.915,84
60.925,78
60.935,82
60.945,84
60.955,82
60.965,63
60.975,95
60.985,84
60.995,89
61.005,73
61.015,69
61.025,79
61.035,79
61.045,87
61.055,84
61.065,85
61.075,73
61.085,78
61.095,99
61.105,93
61.115,92
61.125,94
61.135,96
61.145,70
61.155,73
61.165,97
61.175,76
61.185,81
61.195,75
61.205,85
61.215,86
61.225,95
61.235,86
61.245,85
61.255,87
61.265,78
61.275,78
61.285,87
61.295,88
61.305,87
61.315,97
61.325,97
61.335,101
61.345,115
61.355,87
61.365,83
61.375,103
61.385,106
61.395,104
61.405,115
61.415,111
61.425,118
61.435,98
61.445,95
61.455,126
61.465,111
61.475,117
61.485,103
61.495,116
61.505,118
61.515,113
61.525,135
61.535,108
61.545,111
61.555,144
61.565,117
61.575,122
61.585,111
61.595,139
61.605,141
61.615,125
61.625,126
61.635,131
61.645,130
61.655,117
61.665,127
61.675,114
61.685,117
61.695,101
61.705,122
61.715,134
61.725,95
61.735,105
61.745,111
61.755,127
61.765,120
61.775,115
61.785,114
61.795,110
61.805,109
61.815,109
61.825,115
61.835,99
61.845,113
61.855,72
61.865,97
61.875,80
61.885,93
61.895,78
61.905,88
61.915,101
61.925,97
61.935,89
61.945,91
61.955,94
61.965,108
61.975,76
61.985,82
61.995,77
62.005,88
62.015,72
62.025,80
62.035,84
62.045,94
62.055,89
62.065,87
62.075,83
62.085,73
62.095,67
62.105,83
62.115,91
62.125,77
62.135,74
62.145,89
62.155,74
62.165,98
62.175,73
62.185,81
62.195,64
62.205,84
62.215,86
62.225,87
62.235,73
62.245,84
62.255,81
62.265,70
62.275,91
62.285,77
62.295,78
62.305,58
62.315,71
62.325,89
62.335,95
62.345,92
62.355,78
62.365,70
62.375,73
62.385,84
62.395,91
62.405,94
62.415,70
62.425,79
62.435,71
62.445,55
62.455,69
62.465,66
62.475,71
62.485,75
62.495,93
62.505,85
62.515,90
62.525,77
62.535,81
62.545,80
62.555,81
62.565,71
62.575,79
62.585,89
62.595,93
62.605,88
62.615,69
62.625,72
62.635,93
62.645,76
62.655,74
62.665,85
62.675,80
62.685,94
62.695,93
62.705,112
62.715,109
62.725,91
62.735,76
62.745,89
62.755,59
62.765,83
62.775,81
62.785,70
62.795,77
62.805,85
62.815,90
62.825,56
62.835,78
62.845,81
62.855,79
62.865,84
62.875,95
62.885,89
62.895,87
62.905,76
62.915,101
62.925,103
62.935,92
62.945,72
62.955,78
62.965,79
62.975,81
62.985,71
62.995,103
63.005,77
63.015,68
63.025,92
63.035,85
63.045,84
63.055,80
63.065,81
63.075,94
63.085,105
63.095,86
63.105,80
63.115,83
63.125,75
63.135,72
63.145,75
63.155,82
63.165,91
63.175,72
63.185,82
63.195,74
63.205,90
63.215,81
63.225,77
63.235,95
63.245,75
63.255,88
63.265,82
63.275,87
63.285,78
63.295,103
63.305,78
63.315,73
63.325,87
63.335,64
63.345,82
63.355,90
63.365,85
63.375,92
63.385,95
63.395,74
63.405,88
63.415,88
63.425,82
63.435,100
63.445,93
63.455,75
63.465,71
63.475,66
63.485,103
63.495,72
63.505,85
63.515,83
63.525,78
63.535,91
63.545,83
63.555,82
63.565,64
63.575,77
63.585,79
63.595,100
63.605,80
63.615,81
63.625,93
63.635,85
63.645,80
63.655,77
63.665,81
63.675,70
63.685,98
63.695,77
63.705,76
63.715,88
63.725,82
63.735,87
63.745,75
63.755,72
63.765,80
63.775,81
63.785,80
63.795,97
63.805,95
63.815,83
63.825,89
63.835,90
63.845,74
63.855,77
63.865,77
63.875,85
63.885,73
63.895,86
63.905,62
63.915,76
63.925,98
63.935,86
63.945,87
63.955,87
63.965,72
63.975,85
63.985,104
63.995,85
64.005,98
64.015,72
64.025,83
64.035,93
64.045,86
64.055,75
64.065,91
64.075,81
64.085,82
64.095,74
64.105,100
64.115,89
64.125,91
64.135,90
64.145,71
64.155,100
64.165,85
64.175,88
64.185,98
64.195,81
64.205,93
64.215,77
64.225,83
64.235,89
64.245,85
64.255,103
64.265,95
64.275,103
64.285,92
64.295,115
64.305,92
64.315,77
64.325,94
64.335,89
64.345,83
64.355,66
64.365,79
64.375,82
64.385,73
64.395,87
64.405,82
64.415,84
64.425,78
64.435,85
64.445,66
64.455,92
64.465,84
64.475,72
64.485,80
64.495,84
64.505,100
64.515,88
64.525,83
64.535,96
64.545,83
64.555,78
64.565,71
64.575,89
64.585,78
64.595,68
64.605,72
64.615,79
64.625,64
64.635,90
64.645,81
64.655,88
64.665,87
64.675,88
64.685,76
64.695,77
64.705,74
64.715,84
64.725,81
64.735,83
64.745,89
64.755,97
64.765,79
64.775,86
64.785,92
64.795,90
64.805,70
64.815,91
64.825,80
64.835,76
64.845,73
64.855,87
64.865,71
64.875,81
64.885,89
64.895,65
64.905,94
64.915,69
64.925,76
64.935,74
64.945,69
64.955,81
64.965,73
64.975,70
64.985,61
64.995,72
65.005,63
65.015,81
65.025,72
65.035,67
65.045,90
65.055,78
65.065,75
65.075,74
65.085,56
65.095,70
65.105,75
65.115,69
65.125,63
65.135,80
65.145,72
65.155,57
65.165,72
65.175,77
65.185,73
65.195,96
65.205,81
65.215,76
65.225,68
65.235,90
65.245,80
65.255,70
65.265,74
65.275,72
65.285,67
65.295,88
65.305,75
65.315,70
65.325,67
65.335,81
65.345,85
65.355,70
65.365,79
65.375,76
65.385,61
65.395,93
65.405,71
65.415,72
65.425,57
65.435,80
65.445,77
65.455,76
65.465,67
65.475,81
65.485,86
65.495,76
65.505,77
65.515,83
65.525,68
65.535,80
65.545,77
65.555,78
65.565,68
65.575,75
65.585,81
65.595,79
65.605,67
65.615,83
65.625,84
65.635,72
65.645,79
65.655,69
65.665,77
65.675,98
65.685,102
65.695,88
65.705,67
65.715,97
65.725,69
65.735,86
65.745,71
65.755,67
65.765,88
65.775,77
65.785,86
65.795,84
65.805,86
65.815,85
65.825,84
65.835,92
65.845,61
65.855,79
65.865,83
65.875,99
65.885,90
65.895,78
65.905,94
65.915,77
65.925,87
65.935,82
65.945,104
65.955,104
65.965,80
65.975,87
65.985,88
65.995,103
66.005,84
66.015,94
66.025,83
66.035,96
66.045,81
66.055,73
66.065,92
66.075,96
66.085,88
66.095,88
66.105,77
66.115,76
66.125,77
66.135,109
66.145,94
66.155,82
66.165,75
66.175,83
66.185,71
66.195,90
66.205,90
66.215,82
66.225,71
66.235,77
66.245,74
66.255,75
66.265,80
66.275,83
66.285,91
66.295,94
66.305,76
66.315,72
66.325,96
66.335,86
66.345,85
66.355,77
66.365,72
66.375,85
66.385,74
66.395,79
66.405,62
66.415,69
66.425,60
66.435,69
66.445,71
66.455,89
66.465,69
66.475,74
66.485,65
66.495,93
66.505,80
66.515,81
66.525,77
66.535,72
66.545,70
66.555,72
66.565,82
66.575,68
66.585,64
66.595,72
66.605,92
66.615,73
66.625,84
66.635,76
66.645,81
66.655,71
66.665,76
66.675,68
66.685,72
66.695,75
66.705,74
66.715,59
66.725,74
66.735,67
66.745,81
66.755,78
66.765,82
66.775,58
66.785,76
66.795,86
66.805,82
66.815,77
66.825,64
66.835,57
66.845,72
66.855,80
66.865,92
66.875,76
66.885,75
66.895,68
66.905,70
66.915,77
66.925,76
66.935,68
66.945,78
66.955,71
66.965,74
66.975,71
66.985,77
66.995,69
67.005,84
67.015,64
67.025,71
67.035,72
67.045,72
67.055,82
67.065,83
67.075,85
67.085,80
67.095,70
67.105,80
67.115,61
67.125,74
67.135,85
67.145,69
67.155,78
67.165,84
67.175,66
67.185,67
67.195,82
67.205,83
67.215,66
67.225,64
67.235,78
67.245,75
67.255,66
67.265,82
67.275,70
67.285,60
67.295,79
67.305,71
67.315,91
67.325,81
67.335,77
67.345,73
67.355,70
67.365,78
67.375,75
67.385,89
67.395,66
67.405,87
67.415,58
67.425,85
67.435,75
67.445,99
67.455,78
67.465,71
67.475,69
67.485,70
67.495,84
67.505,81
67.515,60
67.525,81
67.535,74
67.545,79
67.555,93
67.565,81
67.575,71
67.585,75
67.595,81
67.605,82
67.615,77
67.625,68
67.635,80
67.645,70
67.655,74
67.665,72
67.675,52
67.685,77
67.695,68
67.705,64
67.715,73
67.725,74
67.735,76
67.745,78
67.755,77
67.765,72
67.775,60
67.785,72
67.795,80
67.805,81
67.815,68
67.825,73
67.835,69
67.845,65
67.855,74
67.865,78
67.875,72
67.885,69
67.895,83
67.905,78
67.915,78
67.925,48
67.935,70
67.945,78
67.955,75
67.965,66
67.975,74
67.985,81
67.995,61
68.005,90
68.015,71
68.025,58
68.035,74
68.045,75
68.055,74
68.065,74
68.075,74
68.085,59
68.095,63
68.105,60
68.115,68
68.125,76
68.135,84
68.145,66
68.155,73
68.165,86
68.175,71
68.185,78
68.195,84
68.205,83
68.215,68
68.225,78
68.235,78
68.245,71
68.255,86
68.265,83
68.275,84
68.285,70
68.295,69
68.305,72
68.315,55
68.325,79
68.335,52
68.345,75
68.355,103
68.365,70
68.375,90
68.385,70
68.395,78
68.405,71
68.415,66
68.425,66
68.435,83
68.445,90
68.455,78
68.465,74
68.475,79
68.485,88
68.495,74
68.505,75
68.515,85
68.525,65
68.535,73
68.545,86
68.555,72
68.565,75
68.575,89
68.585,70
68.595,72
68.605,77
68.615,69
68.625,65
68.635,74
68.645,89
68.655,78
68.665,69
68.675,77
68.685,77
68.695,79
68.705,69
68.715,63
68.725,61
68.735,62
68.745,71
68.755,84
68.765,73
68.775,79
68.785,76
68.795,74
68.805,83
68.815,62
68.825,83
68.835,84
68.845,74
68.855,79
68.865,82
68.875,74
68.885,85
68.895,68
68.905,84
68.915,78
68.925,77
68.935,77
68.945,75
68.955,78
68.965,67
68.975,63
68.985,79
68.995,73
69.005,75
69.015,71
69.025,67
69.035,94
69.045,75
69.055,63
69.065,102
69.075,97
69.085,76
69.095,95
69.105,87
69.115,68
69.125,67
69.135,92
69.145,54
69.155,70
69.165,66
69.175,67
69.185,77
69.195,104
69.205,81
69.215,82
69.225,59
69.235,76
69.245,68
69.255,83
69.265,69
69.275,93
69.285,72
69.295,63
69.305,75
69.315,82
69.325,68
69.335,77
69.345,81
69.355,75
69.365,77
69.375,57
69.385,77
69.395,69
69.405,85
69.415,82
69.425,72
69.435,73
69.445,73
69.455,79
69.465,71
69.475,82
69.485,74
69.495,65
69.505,80
69.515,52
69.525,74
69.535,72
69.545,67
69.555,70
69.565,83
69.575,82
69.585,62
69.595,97
69.605,84
69.615,65
69.625,61
69.635,65
69.645,70
69.655,67
69.665,70
69.675,76
69.685,70
69.695,81
69.705,74
69.715,56
69.725,83
69.735,73
69.745,83
69.755,93
69.765,64
69.775,69
69.785,79
69.795,87
69.805,81
69.815,84
69.825,76
69.835,87
69.845,99
69.855,75
69.865,96
69.875,53
69.885,85
69.895,79
69.905,75
69.915,77
69.925,90
69.935,74
69.945,87
69.955,80
69.965,80
69.975,93
69.985,76
69.995,95
70.005,75
70.015,74
70.025,82
70.035,78
70.045,70
70.055,63
70.065,74
70.075,87
70.085,63
70.095,72
70.105,62
70.115,70
70.125,66
70.135,63
70.145,61
70.155,87
70.165,82
70.175,68
70.185,68
70.195,84
70.205,75
70.215,83
70.225,76
70.235,82
70.245,70
70.255,60
70.265,57
70.275,67
70.285,75
70.295,76
70.305,65
70.315,87
70.325,79
70.335,76
70.345,81
70.355,79
70.365,68
70.375,61
70.385,71
70.395,72
70.405,63
70.415,66
70.425,72
70.435,67
70.445,61
70.455,75
70.465,73
70.475,58
70.485,67
70.495,71
70.505,89
70.515,73
70.525,81
70.535,50
70.545,73
70.555,62
70.565,61
70.575,64
70.585,54
70.595,70
70.605,75
70.615,61
70.625,72
70.635,71
70.645,65
70.655,73
70.665,71
70.675,70
70.685,63
70.695,66
70.705,68
70.715,81
70.725,88
70.735,76
70.745,72
70.755,79
70.765,77
70.775,68
70.785,73
70.795,77
70.805,81
70.815,85
70.825,61
70.835,68
70.845,58
70.855,64
70.865,72
70.875,73
70.885,80
70.895,63
70.905,69
70.915,65
70.925,72
70.935,57
70.945,75
70.955,72
70.965,79
70.975,72
70.985,81
70.995,81
71.005,72
71.015,57
71.025,79
71.035,72
71.045,76
71.055,68
71.065,66
71.075,64
71.085,87
71.095,65
71.105,56
71.115,66
71.125,79
71.135,69
71.145,90
71.155,55
71.165,54
71.175,70
71.185,62
71.195,73
71.205,54
71.215,79
71.225,75
71.235,63
71.245,54
71.255,70
71.265,76
71.275,69
71.285,68
71.295,69
71.305,75
71.315,67
71.325,68
71.335,73
71.345,79
71.355,68
71.365,67
71.375,73
71.385,65
71.395,63
71.405,81
71.415,82
71.425,80
71.435,76
71.445,63
71.455,67
71.465,70
71.475,79
71.485,68
71.495,71
71.505,66
71.515,80
71.525,68
71.535,78
71.545,76
71.555,75
71.565,71
71.575,86
71.585,81
71.595,86
71.605,67
71.615,82
71.625,80
71.635,78
71.645,76
71.655,81
71.665,101
71.675,75
71.685,77
71.695,72
71.705,98
71.715,65
71.725,73
71.735,71
71.745,80
71.755,80
71.765,74
71.775,76
71.785,92
71.795,84
71.805,84
71.815,100
71.825,84
71.835,82
71.845,55
71.855,81
71.865,79
71.875,75
71.885,80
71.895,84
71.905,67
71.915,84
71.925,88
71.935,79
71.945,87
71.955,77
71.965,78
71.975,79
71.985,80
71.995,83
72.005,87
72.015,77
72.025,75
72.035,92
72.045,81
72.055,70
72.065,90
72.075,107
72.085,101
72.095,75
72.105,106
72.115,76
72.125,102
72.135,113
72.145,110
72.155,104
72.165,115
72.175,103
72.185,113
72.195,99
72.205,105
72.215,107
72.225,101
72.235,103
72.245,97
72.255,98
72.265,83
72.275,72
72.285,99
72.295,95
72.305,84
72.315,91
72.325,80
72.335,80
72.345,96
72.355,107
72.365,89
72.375,88
72.385,105
72.395,93
72.405,91
72.415,78
72.425,70
72.435,96
72.445,79
72.455,70
72.465,74
72.475,55
72.485,70
72.495,70
72.505,74
72.515,71
72.525,75
72.535,66
72.545,86
72.555,84
72.565,71
72.575,88
72.585,60
72.595,72
72.605,69
72.615,76
72.625,75
72.635,72
72.645,68
72.655,87
72.665,54
72.675,59
72.685,72
72.695,73
72.705,73
72.715,82
72.725,83
72.735,64
72.745,78
72.755,76
72.765,82
72.775,76
72.785,67
72.795,84
72.805,65
72.815,72
72.825,59
72.835,89
72.845,67
72.855,63
72.865,67
72.875,65
72.885,71
72.895,60
72.905,73
72.915,75
72.925,52
72.935,64
72.945,71
72.955,67
72.965,62
72.975,64
72.985,66
72.995,79
73.005,71
73.015,89
73.025,64
73.035,83
73.045,57
73.055,71
73.065,62
73.075,71
73.085,77
73.095,73
73.105,65
73.115,65
73.125,60
73.135,69
73.145,73
73.155,80
73.165,68
73.175,55
73.185,67
73.195,74
73.205,64
73.215,74
73.225,64
73.235,61
73.245,65
73.255,69
73.265,52
73.275,66
73.285,69
73.295,61
73.305,81
73.315,75
73.325,63
73.335,66
73.345,72
73.355,73
73.365,71
73.375,79
73.385,63
73.395,82
73.405,61
73.415,64
73.425,74
73.435,71
73.445,70
73.455,77
73.465,76
73.475,72
73.485,66
73.495,71
73.505,65
73.515,73
73.525,54
73.535,65
73.545,68
73.555,77
73.565,77
73.575,69
73.585,65
73.595,69
73.605,79
73.615,70
73.625,74
73.635,66
73.645,82
73.655,72
73.665,74
73.675,59
73.685,81
73.695,70
73.705,80
73.715,71
73.725,58
73.735,70
73.745,66
73.755,73
73.765,63
73.775,81
73.785,68
73.795,80
73.805,54
73.815,80
73.825,78
73.835,50
73.845,71
73.855,60
73.865,71
73.875,57
73.885,67
73.895,58
73.905,51
73.915,61
73.925,70
73.935,59
73.945,81
73.955,86
73.965,53
73.975,68
73.985,72
73.995,73
74.005,67
74.015,61
74.025,50
74.035,65
74.045,57
74.055,53
74.065,60
74.075,57
74.085,83
74.095,51
74.105,65
74.115,65
74.125,70
74.135,66
74.145,75
74.155,54
74.165,68
74.175,70
74.185,72
74.195,66
74.205,64
74.215,47
74.225,68
74.235,61
74.245,71
74.255,69
74.265,60
74.275,55
74.285,75
74.295,81
74.305,58
74.315,61
74.325,72
74.335,62
74.345,59
74.355,46
74.365,59
74.375,65
74.385,91
74.395,81
74.405,83
74.415,77
74.425,65
74.435,62
74.445,60
74.455,68
74.465,52
74.475,67
74.485,63
74.495,74
74.505,68
74.515,58
74.525,84
74.535,59
74.545,84
74.555,65
74.565,62
74.575,58
74.585,61
74.595,69
74.605,69
74.615,65
74.625,53
74.635,57
74.645,64
74.655,64
74.665,67
74.675,64
74.685,80
74.695,57
74.705,90
74.715,53
74.725,55
74.735,55
74.745,56
74.755,59
74.765,60
74.775,61
74.785,53
74.795,74
74.805,63
74.815,59
74.825,76
74.835,63
74.845,63
74.855,65
74.865,39
74.875,67
74.885,52
74.895,64
74.905,67
74.915,52
74.925,66
74.935,67
74.945,77
74.955,68
74.965,64
74.975,54
74.985,60
74.995,67
75.005,75
75.015,70
75.025,57
75.035,55
75.045,62
75.055,52
75.065,71
75.075,64
75.085,75
75.095,60
75.105,56
75.115,72
75.125,75
75.135,64
75.145,58
75.155,71
75.165,73
75.175,63
75.185,77
75.195,74
75.205,54
75.215,71
75.225,62
75.235,80
75.245,75
75.255,70
75.265,61
75.275,70
75.285,67
75.295,75
75.305,74
75.315,62
75.325,59
75.335,62
75.345,66
75.355,54
75.365,63
75.375,62
75.385,63
75.395,63
75.405,72
75.415,57
75.425,72
75.435,67
75.445,75
75.455,58
75.465,55
75.475,53
75.485,62
75.495,67
75.505,77
75.515,77
75.525,71
75.535,67
75.545,56
75.555,62
75.565,62
75.575,61
75.585,62
75.595,65
75.605,89
75.615,74
75.625,98
75.635,86
75.645,89
75.655,121
75.665,101
75.675,105
75.685,94
75.695,96
75.705,105
75.715,92
75.725,58
75.735,80
75.745,77
75.755,72
75.765,70
75.775,63
75.785,59
75.795,67
75.805,78
75.815,74
75.825,78
75.835,82
75.845,70
75.855,73
75.865,83
75.875,93
75.885,87
75.895,77
75.905,81
75.915,66
75.925,58
75.935,79
75.945,89
75.955,66
75.965,80
75.975,62
75.985,65
75.995,68
76.005,60
76.015,64
76.025,64
76.035,66
76.045,62
76.055,62
76.065,54
76.075,54
76.085,51
76.095,65
76.105,69
76.115,46
76.125,53
76.135,67
76.145,46
76.155,59
76.165,69
76.175,58
76.185,60
76.195,79
76.205,73
76.215,47
76.225,63
76.235,66
76.245,68
76.255,84
76.265,62
76.275,51
76.285,59
76.295,66
76.305,65
76.315,63
76.325,56
76.335,60
76.345,70
76.355,67
76.365,59
76.375,56
76.385,62
76.395,67
76.405,64
76.415,53
76.425,67
76.435,45
76.445,65
76.455,75
76.465,61
76.475,78
76.485,61
76.495,54
76.505,59
76.515,62
76.525,58
76.535,61
76.545,54
76.555,66
76.565,63
76.575,58
76.585,65
76.595,75
76.605,66
76.615,66
76.625,62
76.635,53
76.645,62
76.655,67
76.665,64
76.675,72
76.685,75
76.695,60
76.705,78
76.715,60
76.725,74
76.735,72
76.745,72
76.755,59
76.765,73
76.775,66
76.785,60
76.795,52
76.805,52
76.815,66
76.825,56
76.835,72
76.845,55
76.855,49
76.865,69
76.875,61
76.885,77
76.895,60
76.905,55
76.915,71
76.925,70
76.935,58
76.945,73
76.955,73
76.965,69
76.975,69
76.985,58
76.995,64
77.005,53
77.015,57
77.025,65
77.035,69
77.045,55
77.055,65
77.065,47
77.075,75
77.085,65
77.095,70
77.105,53
77.115,50
77.125,83
77.135,43
77.145,60
77.155,54
77.165,64
77.175,49
77.185,60
77.195,63
77.205,66
77.215,60
77.225,61
77.235,75
77.245,55
77.255,59
77.265,66
77.275,71
77.285,47
77.295,66
77.305,57
77.315,71
77.325,59
77.335,55
77.345,62
77.355,61
77.365,61
77.375,65
77.385,52
77.395,59
77.405,62
77.415,75
77.425,57
77.435,48
77.445,55
77.455,61
77.465,63
77.475,58
77.485,57
77.495,78
77.505,66
77.515,57
77.525,52
77.535,49
77.545,55
77.555,68
77.565,49
77.575,53
77.585,61
77.595,50
77.605,51
77.615,63
77.625,58
77.635,51
77.645,55
77.655,66
77.665,70
77.675,59
77.685,70
77.695,58
77.705,57
77.715,56
77.725,62
77.735,65
77.745,46
77.755,57
77.765,57
77.775,58
77.785,60
77.795,56
77.805,63
77.815,65
77.825,55
77.835,63
77.845,60
77.855,55
77.865,59
77.875,54
77.885,56
77.895,55
77.905,62
77.915,78
77.925,54
77.935,66
77.945,54
77.955,63
77.965,70
77.975,69
77.985,60
77.995,53
78.005,79
78.015,69
78.025,58
78.035,51
78.045,57
78.055,60
78.065,45
78.075,50
78.085,69
78.095,66
78.105,65
78.115,56
78.125,61
78.135,67
78.145,39
78.155,61
78.165,67
78.175,65
78.185,45
78.195,61
78.205,57
78.215,48
78.225,51
78.235,46
78.245,60
78.255,67
78.265,56
78.275,49
78.285,61
78.295,55
78.305,67
78.315,56
78.325,62
78.335,40
78.345,44
78.355,56
78.365,61
78.375,44
78.385,64
78.395,72
78.405,66
78.415,62
78.425,55
78.435,52
78.445,51
78.455,44
78.465,55
78.475,52
78.485,55
78.495,66
78.505,45
78.515,43
78.525,60
78.535,49
78.545,52
78.555,56
78.565,56
78.575,64
78.585,69
78.595,60
78.605,52
78.615,61
78.625,53
78.635,69
78.645,51
78.655,57
78.665,45
78.675,45
78.685,50
78.695,42
78.705,50
78.715,49
78.725,49
78.735,45
78.745,49
78.755,68
78.765,56
78.775,47
78.785,50
78.795,62
78.805,59
78.815,50
78.825,53
78.835,62
78.845,61
78.855,50
78.865,58
78.875,61
78.885,56
78.895,66
78.905,56
78.915,57
78.925,42
78.935,61
78.945,47
78.955,69
78.965,55
78.975,54
78.985,66
78.995,60
79.005,56
79.015,49
79.025,57
79.035,54
79.045,54
79.055,56
79.065,50
79.075,55
79.085,66
79.095,54
79.105,63
79.115,66
79.125,58
79.135,56
79.145,58
79.155,54
79.165,49
79.175,47
79.185,52
79.195,50
79.205,67
79.215,59
79.225,53
79.235,56
79.245,71
79.255,51
79.265,66
79.275,55
79.285,59
79.295,54
79.305,45
79.315,40
79.325,59
79.335,55
79.345,53
79.355,56
79.365,53
79.375,52
79.385,50
79.395,56
79.405,69
79.415,58
79.425,50
79.435,60
79.445,36
79.455,64
79.465,55
79.475,52
79.485,54
79.495,47
79.505,58
79.515,57
79.525,62
79.535,60
79.545,54
79.555,51
79.565,56
79.575,43
79.585,64
79.595,53
79.605,61
79.615,59
79.625,50
79.635,43
79.645,64
79.655,60
79.665,40
79.675,49
79.685,67
79.695,53
79.705,49
79.715,56
79.725,47
79.735,51
79.745,47
79.755,61
79.765,63
79.775,46
79.785,45
79.795,48
79.805,61
79.815,52
79.825,63
79.835,58
79.845,55
79.855,59
79.865,57
79.875,50
79.885,51
79.895,57
79.905,60
79.915,46
79.925,55
79.935,54
79.945,54
79.955,67
79.965,58
79.975,75
79.985,64
79.995,52
